"rt","trialNumber","reportChasing","chasingIsPresent","isVolatile","miniBlock","video_name","key_pressed","trial_type","trial_index","time_elapsed","internal_node_id","subject","prolificID","proj_name","exp_version","value","test_part","user_agent","trial_part","interaction_data","browser"
"1245.2000000476837","1","1","1","practice","practice","trial_7.mp4","KeyJ","html-button-response","1","2164","0.0-1.0","2rt3l3ub","no_query","ChasingPerceptionAndParanoia","Pilot3_2afc","","","","","",""
"378.8000000715256","2","1","0","0","miniBlockStable","trial_1.mp4","KeyJ","html-button-response","3","3469","0.0-3.0","2rt3l3ub","no_query","ChasingPerceptionAndParanoia","Pilot3_2afc","","","","","",""
"287.60000002384186","3","1","0","0","miniBlockStable","trial_9.mp4","KeyJ","html-button-response","5","4673","0.0-5.0","2rt3l3ub","no_query","ChasingPerceptionAndParanoia","Pilot3_2afc","","","","","",""
"282","4","1","1","1","miniBlockChasingIsDominant_Not","trial_6.mp4","KeyJ","html-button-response","7","5881","0.0-7.0","2rt3l3ub","no_query","ChasingPerceptionAndParanoia","Pilot3_2afc","","","","","",""
"403.89999997615814","5","1","0","1","miniBlockChasingIsDominant_Not","trial_5.mp4","KeyJ","html-button-response","9","7212","0.0-9.0","2rt3l3ub","no_query","ChasingPerceptionAndParanoia","Pilot3_2afc","","","","","",""
"330.60000002384186","6","1","0","0","miniBlockStable","trial_7.mp4","KeyJ","html-button-response","11","8448","0.0-11.0","2rt3l3ub","no_query","ChasingPerceptionAndParanoia","Pilot3_2afc","","","","","",""
"383.7999999523163","7","1","1","0","miniBlockStable","trial_9.mp4","KeyJ","html-button-response","13","9752","0.0-13.0","2rt3l3ub","no_query","ChasingPerceptionAndParanoia","Pilot3_2afc","","","","","",""
"412.89999997615814","8","1","1","1","miniBlockChasingIsDominant_Not","trial_1.mp4","KeyJ","html-button-response","15","11108","0.0-15.0","2rt3l3ub","no_query","ChasingPerceptionAndParanoia","Pilot3_2afc","","","","","",""
"306.6999999284744","9","1","1","1","miniBlockChasingIsDominant_Not","trial_4.mp4","KeyJ","html-button-response","17","12341","0.0-17.0","2rt3l3ub","no_query","ChasingPerceptionAndParanoia","Pilot3_2afc","","","","","",""
"565.6000000238419","10","1","1","","","trial_10.mp4","KeyJ","html-button-response","19","13826","0.0-19.0","2rt3l3ub","no_query","ChasingPerceptionAndParanoia","Pilot3_2afc","","","","","",""
"408.7999999523163","11","1","0","","","trial_6.mp4","KeyJ","html-button-response","21","15163","0.0-21.0","2rt3l3ub","no_query","ChasingPerceptionAndParanoia","Pilot3_2afc","","","","","",""
"554.2000000476837","12","1","0","","","trial_4.mp4","KeyJ","html-button-response","23","16643","0.0-23.0","2rt3l3ub","no_query","ChasingPerceptionAndParanoia","Pilot3_2afc","","","","","",""
"495.60000002384186","13","1","1","","","trial_5.mp4","KeyJ","html-button-response","25","18060","0.0-25.0","2rt3l3ub","no_query","ChasingPerceptionAndParanoia","Pilot3_2afc","","","","","",""
"436.1999999284744","14","1","1","","","trial_2.mp4","KeyJ","html-button-response","27","19417","0.0-27.0","2rt3l3ub","no_query","ChasingPerceptionAndParanoia","Pilot3_2afc","","","","","",""
"1017.1000000238419","15","1","0","","","trial_8.mp4","KeyJ","html-button-response","29","21351","0.0-29.0","2rt3l3ub","no_query","ChasingPerceptionAndParanoia","Pilot3_2afc","","","","","",""
"485.3000000715256","16","1","0","","","trial_2.mp4","KeyJ","html-button-response","31","22765","0.0-31.0","2rt3l3ub","no_query","ChasingPerceptionAndParanoia","Pilot3_2afc","","","","","",""
"382.7999999523163","17","1","1","","","trial_3.mp4","KeyJ","html-button-response","33","24079","0.0-33.0","2rt3l3ub","no_query","ChasingPerceptionAndParanoia","Pilot3_2afc","","","","","",""
"911.3999999761581","18","1","0","","","trial_3.mp4","KeyJ","html-button-response","35","25906","0.0-35.0","2rt3l3ub","no_query","ChasingPerceptionAndParanoia","Pilot3_2afc","","","","","",""
"521.8000000715256","19","0","0","","","trial_10.mp4","KeyF","html-button-response","37","27350","0.0-37.0","2rt3l3ub","no_query","ChasingPerceptionAndParanoia","Pilot3_2afc","","","","","",""
"230.39999997615814","20","1","1","","","trial_8.mp4","KeyJ","html-button-response","39","28508","0.0-39.0","2rt3l3ub","no_query","ChasingPerceptionAndParanoia","Pilot3_2afc","","","","","",""
"249.79999995231628","21","0","1","","","trial_7.mp4","KeyF","html-button-response","41","29683","0.0-41.0","2rt3l3ub","no_query","ChasingPerceptionAndParanoia","Pilot3_2afc","","","","","",""
"292.8000000715256","22","1","0","","","trial_1.mp4","KeyJ","html-button-response","43","30890","0.0-43.0","2rt3l3ub","no_query","ChasingPerceptionAndParanoia","Pilot3_2afc","","","","","",""
"346","23","0","0","","","trial_9.mp4","KeyF","html-button-response","45","32140","0.0-45.0","2rt3l3ub","no_query","ChasingPerceptionAndParanoia","Pilot3_2afc","","","","","",""
"319.90000009536743","24","1","1","","","trial_6.mp4","KeyJ","html-button-response","47","33365","0.0-47.0","2rt3l3ub","no_query","ChasingPerceptionAndParanoia","Pilot3_2afc","","","","","",""
"427.89999997615814","25","0","0","","","trial_5.mp4","KeyF","html-button-response","49","34697","0.0-49.0","2rt3l3ub","no_query","ChasingPerceptionAndParanoia","Pilot3_2afc","","","","","",""
"419.5","26","1","0","","","trial_7.mp4","KeyJ","html-button-response","51","36022","0.0-51.0","2rt3l3ub","no_query","ChasingPerceptionAndParanoia","Pilot3_2afc","","","","","",""
"586.9000000953674","27","0","1","","","trial_9.mp4","KeyF","html-button-response","53","37514","0.0-53.0","2rt3l3ub","no_query","ChasingPerceptionAndParanoia","Pilot3_2afc","","","","","",""
"700.6000000238419","28","1","1","","","trial_1.mp4","KeyJ","html-button-response","55","39119","0.0-55.0","2rt3l3ub","no_query","ChasingPerceptionAndParanoia","Pilot3_2afc","","","","","",""
"34.09999990463257","29","1","1","","","trial_4.mp4","KeyJ","html-button-response","57","40059","0.0-57.0","2rt3l3ub","no_query","ChasingPerceptionAndParanoia","Pilot3_2afc","","","","","",""
"577.1000000238419","30","1","1","","","trial_10.mp4","KeyJ","html-button-response","59","41541","0.0-59.0","2rt3l3ub","no_query","ChasingPerceptionAndParanoia","Pilot3_2afc","","","","","",""
"286.60000002384186","31","1","0","","","trial_6.mp4","KeyJ","html-button-response","61","42734","0.0-61.0","2rt3l3ub","no_query","ChasingPerceptionAndParanoia","Pilot3_2afc","","","","","",""
"252","32","1","0","","","trial_4.mp4","KeyJ","html-button-response","63","43890","0.0-63.0","2rt3l3ub","no_query","ChasingPerceptionAndParanoia","Pilot3_2afc","","","","","",""
"26.700000047683716","33","1","1","","","trial_5.mp4","KeyJ","html-button-response","65","44824","0.0-65.0","2rt3l3ub","no_query","ChasingPerceptionAndParanoia","Pilot3_2afc","","","","","",""
"599.1000000238419","34","1","1","","","trial_2.mp4","KeyJ","html-button-response","67","46345","0.0-67.0","2rt3l3ub","no_query","ChasingPerceptionAndParanoia","Pilot3_2afc","","","","","",""
"538.1000000238419","35","1","0","","","trial_8.mp4","KeyJ","html-button-response","69","47794","0.0-69.0","2rt3l3ub","no_query","ChasingPerceptionAndParanoia","Pilot3_2afc","","","","","",""
"474.8000000715256","36","1","0","","","trial_2.mp4","KeyJ","html-button-response","71","49177","0.0-71.0","2rt3l3ub","no_query","ChasingPerceptionAndParanoia","Pilot3_2afc","","","","","",""
"301.7999999523163","37","0","1","","","trial_3.mp4","KeyF","html-button-response","73","50383","0.0-73.0","2rt3l3ub","no_query","ChasingPerceptionAndParanoia","Pilot3_2afc","","","","","",""
"463.2999999523163","38","1","0","","","trial_3.mp4","KeyJ","html-button-response","75","51752","0.0-75.0","2rt3l3ub","no_query","ChasingPerceptionAndParanoia","Pilot3_2afc","","","","","",""
"712.7999999523163","39","0","0","","","trial_10.mp4","KeyF","html-button-response","77","53370","0.0-77.0","2rt3l3ub","no_query","ChasingPerceptionAndParanoia","Pilot3_2afc","","","","","",""
"627","40","0","1","","","trial_8.mp4","KeyF","html-button-response","79","54903","0.0-79.0","2rt3l3ub","no_query","ChasingPerceptionAndParanoia","Pilot3_2afc","","","","","",""
"","","","","","","","","call-function","80","54904","0.0-80.0","2rt3l3ub","no_query","ChasingPerceptionAndParanoia","Pilot3_2afc","","summary","Mozilla/5.0 (Windows NT 10.0; Win64; x64) AppleWebKit/537.36 (KHTML, like Gecko) Chrome/140.0.0.0 Safari/537.36","interaction_data","[{""event"":""fullscreenenter"",""trial"":2,""time"":2193}]","Chrome 140"
